Date, t, Acceleration X (g), Acceleration Y (g), Acceleration Z (g), Acceleration Scalar (g), Speed (m/2)
2016-10-06 17:07:27 +0000, 0.000000, 0.070312, -0.023438, 1.011719, 0.014430, 1.567882
2016-10-06 17:07:27 +0000, 0.029860, 0.070312, -0.085938, 0.996094, 0.002263, 1.567950
2016-10-06 17:07:27 +0000, 0.089826, 0.078125, -0.097656, 1.015625, 0.023296, 1.569347
2016-10-06 17:07:27 +0000, 0.149928, 0.089844, -0.066406, 1.042969, 0.048935, 1.572288
2016-10-06 17:07:27 +0000, 0.180273, 0.121094, -0.039062, 1.062500, 0.070091, 1.574415
2016-10-06 17:07:27 +0000, 0.240804, 0.097656, -0.035156, 1.078125, 0.083109, 1.579445
2016-10-06 17:07:27 +0000, 0.300572, 0.089844, -0.007812, 1.082031, 0.085783, 1.584572
2016-10-06 17:07:27 +0000, 0.330770, 0.058594, 0.015625, 1.101562, 0.103230, 1.587690
2016-10-06 17:07:28 +0000, 0.390861, 0.011719, 0.062500, 1.082031, 0.083898, 1.592731
2016-10-06 17:07:28 +0000, 0.450752, -0.015625, 0.089844, 1.070312, 0.074190, 1.597175
2016-10-06 17:07:28 +0000, 0.480088, -0.078125, 0.105469, 1.046875, 0.055071, 1.598790
2016-10-06 17:07:28 +0000, 0.540185, -0.089844, 0.140625, 0.984375, -0.001581, 1.598695
2016-10-06 17:07:28 +0000, 0.602704, -0.085938, 0.085938, 0.968750, -0.023656, 1.597216
2016-10-06 17:07:28 +0000, 0.630554, -0.152344, 0.035156, 0.902344, -0.084211, 1.594871
2016-10-06 17:07:28 +0000, 0.690212, -0.113281, 0.042969, 1.035156, 0.042222, 1.597390
2016-10-06 17:07:28 +0000, 0.750869, -0.226562, -0.007812, 0.968750, -0.005079, 1.597082
2016-10-06 17:07:28 +0000, 0.780461, -0.132812, 0.085938, 1.109375, 0.120597, 1.600651
2016-10-06 17:07:28 +0000, 0.840207, -0.136719, -0.031250, 0.988281, -0.001817, 1.600542
2016-10-06 17:07:28 +0000, 0.900121, -0.109375, -0.066406, 1.058594, 0.066299, 1.604514
2016-10-06 17:07:28 +0000, 0.930654, -0.027344, -0.148438, 0.996094, 0.007464, 1.604742
2016-10-06 17:07:28 +0000, 0.990056, -0.117188, -0.226562, 0.953125, -0.013333, 1.603950
2016-10-06 17:07:28 +0000, 1.050816, -0.062500, -0.132812, 0.957031, -0.031778, 1.602019
2016-10-06 17:07:28 +0000, 1.080306, -0.058594, -0.226562, 0.847656, -0.120634, 1.598462
2016-10-06 17:07:28 +0000, 1.140269, -0.070312, -0.222656, 0.917969, -0.052801, 1.595296
2016-10-06 17:07:28 +0000, 1.202352, -0.101562, -0.179688, 0.878906, -0.097183, 1.589262
2016-10-06 17:07:28 +0000, 1.229935, -0.054688, -0.105469, 1.015625, 0.022550, 1.589884
2016-10-06 17:07:28 +0000, 1.290272, -0.050781, -0.097656, 1.089844, 0.095388, 1.595640
2016-10-06 17:07:28 +0000, 1.350525, -0.089844, -0.097656, 1.066406, 0.074631, 1.600136
2016-10-06 17:07:29 +0000, 1.380110, -0.066406, -0.058594, 1.023438, 0.027262, 1.600943
2016-10-06 17:07:29 +0000, 1.440241, -0.078125, -0.097656, 1.097656, 0.104758, 1.607242
2016-10-06 17:07:29 +0000, 1.502109, -0.105469, -0.093750, 1.132812, 0.141568, 1.616001
2016-10-06 17:07:29 +0000, 1.530155, -0.128906, -0.015625, 1.125000, 0.132469, 1.619716
2016-10-06 17:07:29 +0000, 1.590156, -0.035156, -0.035156, 1.242188, 0.243182, 1.634307
2016-10-06 17:07:29 +0000, 1.650420, -0.054688, 0.105469, 1.195312, 0.201202, 1.646432
2016-10-06 17:07:29 +0000, 1.680033, 0.007812, 0.035156, 1.218750, 0.219282, 1.652926
2016-10-06 17:07:29 +0000, 1.739937, -0.003906, 0.160156, 1.179688, 0.190516, 1.664338
2016-10-06 17:07:29 +0000, 1.800702, -0.062500, 0.152344, 1.109375, 0.121529, 1.671723
2016-10-06 17:07:29 +0000, 1.830010, -0.062500, 0.187500, 1.171875, 0.188425, 1.677246
2016-10-06 17:07:29 +0000, 1.889933, -0.097656, 0.187500, 1.039062, 0.060351, 1.680862
2016-10-06 17:07:29 +0000, 1.950039, -0.101562, 0.253906, 1.046875, 0.082003, 1.685791
2016-10-06 17:07:29 +0000, 1.980011, -0.214844, 0.210938, 1.035156, 0.078054, 1.688130
2016-10-06 17:07:29 +0000, 2.039968, -0.140625, 0.167969, 1.050781, 0.073373, 1.692530
2016-10-06 17:07:29 +0000, 2.100339, -0.183594, 0.164062, 1.027344, 0.056437, 1.695937
2016-10-06 17:07:29 +0000, 2.129878, -0.207031, 0.207031, 1.019531, 0.060739, 1.697731
2016-10-06 17:07:29 +0000, 2.189925, -0.210938, 0.171875, 0.988281, 0.025054, 1.699235
2016-10-06 17:07:29 +0000, 2.250035, -0.250000, 0.125000, 0.964844, 0.004514, 1.699507
2016-10-06 17:07:29 +0000, 2.279840, -0.218750, 0.085938, 0.933594, -0.037278, 1.698396
2016-10-06 17:07:29 +0000, 2.339762, -0.207031, 0.019531, 0.933594, -0.043527, 1.695787
2016-10-06 17:07:30 +0000, 2.400046, -0.210938, -0.011719, 0.894531, -0.080860, 1.690913
2016-10-06 17:07:30 +0000, 2.429817, -0.226562, -0.031250, 0.980469, 0.006790, 1.691115
2016-10-06 17:07:30 +0000, 2.489886, -0.226562, -0.035156, 1.011719, 0.037372, 1.693360
2016-10-06 17:07:30 +0000, 2.550170, -0.261719, -0.062500, 0.992188, 0.028027, 1.695049
2016-10-06 17:07:30 +0000, 2.579875, -0.234375, -0.117188, 1.003906, 0.037542, 1.696165
2016-10-06 17:07:30 +0000, 2.639909, -0.277344, -0.207031, 0.957031, 0.017689, 1.697226
2016-10-06 17:07:30 +0000, 2.700491, -0.191406, -0.312500, 0.964844, 0.032093, 1.699171
2016-10-06 17:07:30 +0000, 2.729793, -0.167969, -0.222656, 0.917969, -0.040596, 1.697981
2016-10-06 17:07:30 +0000, 2.789934, -0.148438, -0.390625, 0.968750, 0.055035, 1.701291
2016-10-06 17:07:30 +0000, 2.850097, -0.058594, -0.218750, 1.035156, 0.059638, 1.704879
2016-10-06 17:07:30 +0000, 2.880018, -0.089844, -0.246094, 1.039062, 0.071581, 1.707021
2016-10-06 17:07:30 +0000, 2.939913, -0.140625, -0.199219, 1.105469, 0.132044, 1.714930
2016-10-06 17:07:30 +0000, 3.000251, -0.132812, -0.117188, 1.167969, 0.181323, 1.725870
2016-10-06 17:07:30 +0000, 3.029858, -0.214844, -0.105469, 1.082031, 0.108185, 1.729073
2016-10-06 17:07:30 +0000, 3.089955, -0.195312, -0.082031, 1.070312, 0.091075, 1.734547
2016-10-06 17:07:30 +0000, 3.150432, -0.265625, -0.175781, 1.117188, 0.161707, 1.744326
2016-10-06 17:07:30 +0000, 3.179872, -0.152344, -0.078125, 1.164062, 0.176586, 1.749525
2016-10-06 17:07:30 +0000, 3.239950, -0.109375, -0.046875, 1.218750, 0.224545, 1.763015
2016-10-06 17:07:30 +0000, 3.300081, -0.039062, 0.027344, 1.289062, 0.289944, 1.780450
2016-10-06 17:07:30 +0000, 3.329873, 0.023438, 0.132812, 1.281250, 0.288328, 1.789040
2016-10-06 17:07:31 +0000, 3.389810, 0.109375, 0.195312, 1.250000, 0.269886, 1.805216
2016-10-06 17:07:31 +0000, 3.449837, -0.019531, 0.226562, 1.089844, 0.113315, 1.812018
2016-10-06 17:07:31 +0000, 3.479902, -0.031250, 0.222656, 1.054688, 0.078387, 1.814374
2016-10-06 17:07:31 +0000, 3.539768, -0.039062, 0.414062, 1.046875, 0.126464, 1.821945
2016-10-06 17:07:31 +0000, 3.599913, -0.109375, 0.257812, 0.890625, -0.066382, 1.817953
2016-10-06 17:07:31 +0000, 3.629771, -0.144531, 0.218750, 0.933594, -0.030290, 1.817048
2016-10-06 17:07:31 +0000, 3.689817, -0.101562, 0.144531, 0.937500, -0.046003, 1.814286
2016-10-06 17:07:31 +0000, 3.749928, -0.191406, 0.148438, 0.917969, -0.050612, 1.811244
2016-10-06 17:07:31 +0000, 3.779868, -0.175781, 0.113281, 1.023438, 0.044584, 1.812579
2016-10-06 17:07:31 +0000, 3.839864, -0.250000, 0.117188, 1.039062, 0.075120, 1.817086
2016-10-06 17:07:31 +0000, 3.899902, -0.261719, 0.101562, 1.132812, 0.167080, 1.827117
2016-10-06 17:07:31 +0000, 3.929774, -0.296875, 0.070312, 1.222656, 0.260146, 1.834888
2016-10-06 17:07:31 +0000, 3.989811, -0.320312, 0.050781, 1.109375, 0.155808, 1.844242
2016-10-06 17:07:31 +0000, 4.049996, -0.250000, -0.089844, 1.097656, 0.129345, 1.852027
2016-10-06 17:07:31 +0000, 4.079877, -0.218750, -0.031250, 0.964844, -0.010176, 1.851723
2016-10-06 17:07:31 +0000, 4.139743, -0.222656, -0.218750, 0.851562, -0.093035, 1.846153
2016-10-06 17:07:31 +0000, 4.199854, -0.082031, -0.230469, 0.847656, -0.117749, 1.839075
2016-10-06 17:07:31 +0000, 4.229737, -0.152344, -0.230469, 0.910156, -0.048838, 1.837615
2016-10-06 17:07:31 +0000, 4.289748, -0.171875, -0.246094, 0.957031, 0.003001, 1.837796
2016-10-06 17:07:31 +0000, 4.349777, -0.148438, -0.242188, 1.074219, 0.111141, 1.844467
2016-10-06 17:07:32 +0000, 4.379975, -0.250000, -0.191406, 1.093750, 0.138168, 1.848640
2016-10-06 17:07:32 +0000, 4.439764, -0.230469, -0.363281, 1.042969, 0.128217, 1.856306
2016-10-06 17:07:32 +0000, 4.499732, -0.218750, -0.230469, 0.941406, -0.006414, 1.855921
2016-10-06 17:07:32 +0000, 4.529749, -0.183594, -0.363281, 0.917969, 0.004165, 1.856046
2016-10-06 17:07:32 +0000, 4.589801, -0.195312, -0.246094, 1.039062, 0.085523, 1.861182
2016-10-06 17:07:32 +0000, 4.649780, -0.207031, -0.101562, 1.128906, 0.152218, 1.870312
2016-10-06 17:07:32 +0000, 4.679806, -0.125000, -0.101562, 1.125000, 0.136470, 1.874409
2016-10-06 17:07:32 +0000, 4.739742, -0.242188, -0.214844, 1.195312, 0.238380, 1.888697
2016-10-06 17:07:32 +0000, 4.799740, -0.117188, -0.199219, 1.148438, 0.171465, 1.898984
2016-10-06 17:07:32 +0000, 4.829722, -0.152344, -0.226562, 1.109375, 0.142476, 1.903256
2016-10-06 17:07:32 +0000, 4.889763, 0.093750, 0.019531, 1.507812, 0.510850, 1.933928
2016-10-06 17:07:32 +0000, 4.949762, -0.027344, -0.203125, 1.113281, 0.131991, 1.941847
2016-10-06 17:07:32 +0000, 4.979842, 0.148438, 0.351562, 1.406250, 0.457110, 1.955597
2016-10-06 17:07:32 +0000, 5.039753, 0.023438, -0.074219, 1.140625, 0.143277, 1.964181
2016-10-06 17:07:32 +0000, 5.099913, 0.125000, 0.339844, 1.183594, 0.237745, 1.978484
2016-10-06 17:07:32 +0000, 5.129826, 0.019531, 0.128906, 1.113281, 0.120890, 1.982100
2016-10-06 17:07:32 +0000, 5.189674, 0.042969, 0.234375, 1.066406, 0.092703, 1.987648
2016-10-06 17:07:32 +0000, 5.249722, 0.062500, 0.097656, 1.128906, 0.134845, 1.995745
2016-10-06 17:07:32 +0000, 5.279892, -0.039062, 0.218750, 0.949219, -0.025119, 1.994987
2016-10-06 17:07:32 +0000, 5.339739, 0.000000, 0.101562, 1.023438, 0.028465, 1.996691
2016-10-06 17:07:33 +0000, 5.399744, -0.082031, 0.097656, 0.925781, -0.065475, 1.992762
2016-10-06 17:07:33 +0000, 5.429758, -0.105469, 0.097656, 1.027344, 0.037350, 1.993883
2016-10-06 17:07:33 +0000, 5.489791, -0.246094, 0.093750, 0.925781, -0.037492, 1.991632
2016-10-06 17:07:33 +0000, 5.549780, -0.265625, 0.089844, 0.988281, 0.027292, 1.993270
2016-10-06 17:07:33 +0000, 5.579842, -0.273438, 0.109375, 0.972656, 0.016263, 1.993759
2016-10-06 17:07:33 +0000, 5.639731, -0.304688, -0.019531, 1.027344, 0.071751, 1.998056
2016-10-06 17:07:33 +0000, 5.699760, -0.347656, -0.035156, 1.039062, 0.096244, 2.003833
2016-10-06 17:07:33 +0000, 5.729754, -0.300781, -0.253906, 1.046875, 0.118430, 2.007385
2016-10-06 17:07:33 +0000, 5.789743, -0.320312, -0.117188, 1.097656, 0.149427, 2.016349
2016-10-06 17:07:33 +0000, 5.849762, -0.285156, -0.218750, 1.171875, 0.225747, 2.029898
2016-10-06 17:07:33 +0000, 5.880010, -0.328125, -0.273438, 1.132812, 0.210660, 2.036270
2016-10-06 17:07:33 +0000, 5.939753, -0.238281, -0.261719, 1.171875, 0.224159, 2.049662
2016-10-06 17:07:33 +0000, 5.999768, -0.257812, -0.382812, 1.109375, 0.201551, 2.061759
2016-10-06 17:07:33 +0000, 6.029828, -0.218750, -0.281250, 1.078125, 0.135476, 2.065831
2016-10-06 17:07:33 +0000, 6.089765, -0.253906, -0.285156, 1.113281, 0.176936, 2.076436
2016-10-06 17:07:33 +0000, 6.149760, -0.257812, -0.187500, 1.097656, 0.143010, 2.085016
2016-10-06 17:07:33 +0000, 6.179880, -0.203125, -0.132812, 1.191406, 0.215873, 2.091518
2016-10-06 17:07:33 +0000, 6.239769, -0.148438, -0.066406, 1.281250, 0.291528, 2.108977
2016-10-06 17:07:33 +0000, 6.299752, -0.230469, -0.214844, 1.179688, 0.221039, 2.122236
2016-10-06 17:07:33 +0000, 6.329761, -0.089844, -0.058594, 1.152344, 0.157325, 2.126957
2016-10-06 17:07:34 +0000, 6.389848, -0.046875, 0.039062, 1.199219, 0.200770, 2.139021
2016-10-06 17:07:34 +0000, 6.449782, -0.011719, 0.257812, 1.152344, 0.180890, 2.149862
2016-10-06 17:07:34 +0000, 6.479878, 0.062500, 0.218750, 1.132812, 0.155432, 2.154540
2016-10-06 17:07:34 +0000, 6.539948, 0.023438, 0.296875, 0.953125, -0.001435, 2.154454
2016-10-06 17:07:34 +0000, 6.599997, 0.027344, 0.222656, 0.992188, 0.017231, 2.155489
2016-10-06 17:07:34 +0000, 6.629716, 0.039062, 0.234375, 1.050781, 0.077311, 2.157786
2016-10-06 17:07:34 +0000, 6.689938, 0.128906, 0.277344, 1.242188, 0.279283, 2.174605
2016-10-06 17:07:34 +0000, 6.749798, -0.003906, 0.394531, 0.929688, 0.009945, 2.175200
2016-10-06 17:07:34 +0000, 6.779897, -0.046875, 0.441406, 1.031250, 0.122726, 2.178894
2016-10-06 17:07:34 +0000, 6.839741, -0.128906, 0.242188, 0.906250, -0.053131, 2.175715
2016-10-06 17:07:34 +0000, 6.899767, -0.132812, 0.277344, 1.039062, 0.083609, 2.180734
2016-10-06 17:07:34 +0000, 6.929731, -0.218750, -0.054688, 0.816406, -0.153028, 2.176148
2016-10-06 17:07:34 +0000, 6.989735, -0.281250, 0.277344, 1.003906, 0.078818, 2.180878
2016-10-06 17:07:34 +0000, 7.049790, -0.300781, -0.125000, 0.894531, -0.048012, 2.177994
2016-10-06 17:07:34 +0000, 7.079842, -0.433594, -0.000000, 0.875000, -0.023461, 2.177289
2016-10-06 17:07:34 +0000, 7.139686, -0.449219, -0.179688, 1.011719, 0.121454, 2.184557
2016-10-06 17:07:34 +0000, 7.199780, -0.437500, -0.324219, 1.105469, 0.232309, 2.198518
2016-10-06 17:07:34 +0000, 7.229769, -0.394531, -0.351562, 1.148438, 0.264183, 2.206440
2016-10-06 17:07:34 +0000, 7.289784, -0.335938, -0.453125, 1.144531, 0.275981, 2.223003
2016-10-06 17:07:34 +0000, 7.349782, -0.269531, -0.492188, 1.187500, 0.313412, 2.241808
2016-10-06 17:07:35 +0000, 7.379848, -0.214844, -0.664062, 1.210938, 0.397679, 2.253764
2016-10-06 17:07:35 +0000, 7.439632, -0.179688, -0.613281, 1.218750, 0.376137, 2.276251
2016-10-06 17:07:35 +0000, 7.499665, -0.265625, -0.437500, 1.023438, 0.144285, 2.284913
2016-10-06 17:07:35 +0000, 7.529740, -0.222656, -0.386719, 1.000000, 0.095047, 2.287772
2016-10-06 17:07:35 +0000, 7.589771, -0.148438, -0.375000, 0.968750, 0.049350, 2.290734
2016-10-06 17:07:35 +0000, 7.649810, -0.074219, -0.546875, 0.871094, 0.031206, 2.292608
2016-10-06 17:07:35 +0000, 7.679846, 0.031250, -0.550781, 0.921875, 0.074332, 2.294840
2016-10-06 17:07:35 +0000, 7.739699, 0.210938, -0.859375, 0.605469, 0.072200, 2.299162
2016-10-06 17:07:35 +0000, 7.799796, 0.402344, -0.484375, 0.621094, -0.115547, 2.292218
2016-10-06 17:07:35 +0000, 7.829768, 0.523438, -0.550781, 0.496094, -0.092555, 2.289444
2016-10-06 17:07:35 +0000, 7.889836, 0.609375, -0.242188, 0.562500, -0.136056, 2.281271
2016-10-06 17:07:35 +0000, 7.949728, 0.625000, -0.105469, 0.746094, -0.021019, 2.280012
2016-10-06 17:07:35 +0000, 7.979881, 0.777344, 0.300781, 0.722656, 0.103161, 2.283123
2016-10-06 17:07:35 +0000, 8.039677, 0.605469, 0.367188, 0.503906, -0.130897, 2.275296
2016-10-06 17:07:35 +0000, 8.099754, 0.746094, 0.218750, 0.769531, 0.093931, 2.280939
2016-10-06 17:07:35 +0000, 8.129736, 0.464844, 0.312500, 0.648438, -0.143141, 2.276647
2016-10-06 17:07:35 +0000, 8.189681, 0.550781, 0.117188, 0.847656, 0.017651, 2.277705
2016-10-06 17:07:35 +0000, 8.249789, 0.175781, 0.062500, 0.796875, -0.181578, 2.266791
2016-10-06 17:07:35 +0000, 8.279827, 0.152344, -0.132812, 1.101562, 0.119950, 2.270394
2016-10-06 17:07:35 +0000, 8.339800, 0.097656, -0.304688, 1.199219, 0.241168, 2.284857
