Date, t, Acceleration X (g), Acceleration Y (g), Acceleration Z (g), Acceleration Scalar (g), Speed (m/2)
2016-09-27 17:34:48 +0000, 0.000000, -0.410156, 0.363281, 0.847656, 0.009318, 90.046902
2016-09-27 17:34:48 +0000, 0.058387, -0.375000, 0.355469, 0.816406, -0.033821, 90.044928
2016-09-27 17:34:48 +0000, 0.178819, -0.351562, 0.394531, 0.878906, 0.025538, 90.048003
2016-09-27 17:34:48 +0000, 0.268925, -0.378906, 0.406250, 0.800781, -0.025393, 90.045715
2016-09-27 17:34:48 +0000, 0.359084, -0.480469, 0.324219, 0.906250, 0.075759, 90.052546
2016-09-27 17:34:48 +0000, 0.479118, -0.679688, 0.218750, 1.218750, 0.412508, 90.102061
2016-09-27 17:34:48 +0000, 0.569148, -0.566406, 0.019531, 0.761719, -0.050572, 90.097508
2016-09-27 17:34:48 +0000, 0.659752, -0.402344, 0.230469, 0.585938, -0.252792, 90.074603
2016-09-27 17:34:48 +0000, 0.778751, -0.359375, 0.433594, 0.734375, -0.074548, 90.065732
2016-09-27 17:34:48 +0000, 0.869919, -0.390625, 0.453125, 0.753906, -0.037563, 90.062308
2016-09-27 17:34:49 +0000, 0.958885, -0.390625, 0.359375, 0.773438, -0.061947, 90.056797
2016-09-27 17:34:49 +0000, 1.079776, -0.394531, 0.421875, 0.718750, -0.077918, 90.047377
2016-09-27 17:34:49 +0000, 1.168971, -0.640625, 0.476562, 0.445312, -0.085771, 90.039727
2016-09-27 17:34:49 +0000, 1.260225, -0.355469, 0.140625, -0.007812, -0.617646, 89.983364
2016-09-27 17:34:49 +0000, 1.378834, -0.160156, 0.527344, 0.382812, -0.328966, 89.944346
2016-09-27 17:34:49 +0000, 1.470025, -0.027344, 0.125000, 0.273438, -0.698105, 89.880685
2016-09-27 17:34:49 +0000, 1.558882, -0.183594, 0.167969, 0.902344, -0.063974, 89.875000
2016-09-27 17:34:49 +0000, 1.678881, -0.066406, -0.007812, 1.347656, 0.349314, 89.916918
2016-09-27 17:34:49 +0000, 1.769853, -0.125000, 0.402344, 1.132812, 0.208623, 89.935896
2016-09-27 17:34:49 +0000, 1.858946, 0.070312, 0.273438, 1.093750, 0.129602, 89.947443
2016-09-27 17:34:50 +0000, 1.979979, 0.074219, 0.152344, 1.191406, 0.203398, 89.972061
2016-09-27 17:34:50 +0000, 2.069007, 0.019531, 0.179688, 1.472656, 0.483707, 90.015124
2016-09-27 17:34:50 +0000, 2.159056, -0.167969, 0.359375, 1.062500, 0.134138, 90.027203
2016-09-27 17:34:50 +0000, 2.278916, -0.238281, 0.242188, 1.113281, 0.163971, 90.046857
2016-09-27 17:34:50 +0000, 2.369309, -0.132812, 0.324219, 0.945312, 0.008153, 90.047594
2016-09-27 17:34:50 +0000, 2.459552, -0.093750, 0.164062, 1.023438, 0.040735, 90.051270
2016-09-27 17:34:50 +0000, 2.579988, 0.003906, 0.050781, 1.074219, 0.075426, 90.060354
2016-09-27 17:34:50 +0000, 2.668929, 0.007812, 0.027344, 1.082031, 0.082405, 90.067683
2016-09-27 17:34:50 +0000, 2.760665, 0.050781, -0.023438, 1.125000, 0.126389, 90.079278
2016-09-27 17:34:50 +0000, 2.879377, 0.125000, 0.019531, 1.121094, 0.128210, 90.094498
2016-09-27 17:34:51 +0000, 2.969498, 0.128906, 0.042969, 1.050781, 0.059530, 90.099863
2016-09-27 17:34:51 +0000, 3.058893, 0.039062, -0.117188, 1.203125, 0.209450, 90.118586
2016-09-27 17:34:51 +0000, 3.179277, 0.128906, -0.187500, 1.371094, 0.389846, 90.165517
2016-09-27 17:34:51 +0000, 3.269249, 0.085938, -0.125000, 1.339844, 0.348403, 90.196864
2016-09-27 17:34:51 +0000, 3.358980, 0.468750, -0.132812, 1.265625, 0.356161, 90.228823
2016-09-27 17:34:51 +0000, 3.481235, 0.675781, 0.261719, 1.601562, 0.757891, 90.321479
2016-09-27 17:34:51 +0000, 3.569189, 0.445312, 0.125000, 1.488281, 0.558496, 90.370601
2016-09-27 17:34:51 +0000, 3.661117, 0.285156, -0.429688, 1.417969, 0.508834, 90.417377
2016-09-27 17:34:51 +0000, 3.778895, 0.398438, -0.695312, 1.226562, 0.465151, 90.472161
2016-09-27 17:34:51 +0000, 3.870271, 0.218750, -0.355469, 1.097656, 0.174333, 90.488091
2016-09-27 17:34:52 +0000, 3.959042, 0.222656, -0.394531, 0.781250, -0.096904, 90.479489
2016-09-27 17:34:52 +0000, 4.079512, -0.230469, 0.027344, 0.277344, -0.638361, 90.402586
2016-09-27 17:34:52 +0000, 4.169072, -0.441406, -0.007812, 0.113281, -0.544222, 90.353845
2016-09-27 17:34:52 +0000, 4.260893, -0.601562, 0.296875, 0.304688, -0.263219, 90.329676
2016-09-27 17:34:52 +0000, 4.378890, -0.605469, 0.394531, 0.414062, -0.167116, 90.309957
2016-09-27 17:34:52 +0000, 4.469078, -0.464844, 0.500000, 0.554688, -0.120365, 90.299101
2016-09-27 17:34:52 +0000, 4.558958, -0.429688, 0.589844, 0.546875, -0.088068, 90.291186
2016-09-27 17:34:52 +0000, 4.678900, -0.394531, 0.566406, 0.398438, -0.202991, 90.266839
2016-09-27 17:34:52 +0000, 4.769747, -0.285156, 0.589844, 0.679688, -0.055964, 90.261754
2016-09-27 17:34:52 +0000, 4.858950, -0.273438, 0.464844, 0.777344, -0.053897, 90.256947
2016-09-27 17:34:53 +0000, 4.980354, -0.203125, 0.300781, 0.722656, -0.191321, 90.233719
2016-09-27 17:34:53 +0000, 5.069349, -0.214844, 0.312500, 0.695312, -0.207994, 90.215209
2016-09-27 17:34:53 +0000, 5.159090, -0.160156, 0.144531, 1.105469, 0.126322, 90.226545
2016-09-27 17:34:53 +0000, 5.279009, 0.011719, 0.054688, 1.421875, 0.422975, 90.277268
2016-09-27 17:34:53 +0000, 5.370271, 0.300781, 0.187500, 1.234375, 0.284254, 90.303210
2016-09-27 17:34:53 +0000, 5.458525, 0.457031, 0.027344, 0.566406, -0.271686, 90.279232
2016-09-27 17:34:53 +0000, 5.579419, -0.421875, -0.390625, 0.824219, 0.004939, 90.279829
2016-09-27 17:34:53 +0000, 5.669151, -0.296875, -0.539062, 1.113281, 0.272053, 90.304241
2016-09-27 17:34:53 +0000, 5.758725, 0.062500, -0.460938, 1.468750, 0.540648, 90.352669
2016-09-27 17:34:53 +0000, 5.880190, -0.132812, 0.179688, 1.566406, 0.582263, 90.423394
2016-09-27 17:34:54 +0000, 5.968615, 0.156250, 0.015625, 1.570312, 0.578144, 90.474516
2016-09-27 17:34:54 +0000, 6.063713, 0.246094, 0.304688, 1.281250, 0.339775, 90.506828
2016-09-27 17:34:54 +0000, 6.179017, 0.058594, 0.089844, 1.636719, 0.640230, 90.580649
2016-09-27 17:34:54 +0000, 6.270065, 0.011719, -0.179688, 1.640625, 0.650477, 90.639874
2016-09-27 17:34:54 +0000, 6.360545, -0.121094, 0.046875, 1.570312, 0.575672, 90.691961
2016-09-27 17:34:54 +0000, 6.479282, 0.113281, -0.363281, 1.492188, 0.539945, 90.756072
2016-09-27 17:34:54 +0000, 6.570080, 0.183594, -0.535156, 1.464844, 0.570308, 90.807855
2016-09-27 17:34:54 +0000, 6.659317, -0.070312, -0.652344, 0.835938, 0.062680, 90.813448
2016-09-27 17:34:54 +0000, 6.778866, -0.136719, -0.875000, 0.789062, 0.186144, 90.835701
2016-09-27 17:34:54 +0000, 6.870616, -0.007812, -0.773438, 0.382812, -0.136975, 90.823134
2016-09-27 17:34:55 +0000, 6.988901, -0.074219, -0.144531, 0.328125, -0.633853, 90.748159
2016-09-27 17:34:55 +0000, 7.079566, -0.324219, 0.414062, 0.375000, -0.354097, 90.716054
2016-09-27 17:34:55 +0000, 7.172057, -0.324219, 0.320312, 0.089844, -0.535468, 90.666528
2016-09-27 17:34:55 +0000, 7.264515, -0.378906, 0.777344, 0.476562, -0.012607, 90.665363
2016-09-27 17:34:55 +0000, 7.378947, -0.277344, 0.621094, 0.265625, -0.269772, 90.634492
2016-09-27 17:34:55 +0000, 7.470026, -0.191406, 0.566406, 0.417969, -0.270514, 90.609854
2016-09-27 17:34:55 +0000, 7.561841, -0.273438, 0.503906, 0.679688, -0.110807, 90.599681
2016-09-27 17:34:55 +0000, 7.680145, -0.023438, 0.230469, 0.402344, -0.535731, 90.536301
2016-09-27 17:34:55 +0000, 7.769453, 0.058594, 0.089844, 0.648438, -0.342751, 90.505691
2016-09-27 17:34:55 +0000, 7.862012, -0.230469, -0.167969, 0.804688, -0.146272, 90.492152
2016-09-27 17:34:56 +0000, 7.979270, -0.109375, -0.500000, 1.070312, 0.186394, 90.514008
2016-09-27 17:34:56 +0000, 8.070213, 0.062500, -0.257812, 0.667969, -0.281282, 90.488428
2016-09-27 17:34:56 +0000, 8.161073, 0.140625, -0.472656, 1.054688, 0.164279, 90.503354
2016-09-27 17:34:56 +0000, 8.279716, 0.015625, -0.195312, 1.382812, 0.396625, 90.550411
2016-09-27 17:34:56 +0000, 8.371417, 0.183594, -0.375000, 1.750000, 0.799120, 90.623691
2016-09-27 17:34:56 +0000, 8.461234, 0.097656, 0.089844, 1.890625, 0.895276, 90.704102
2016-09-27 17:34:56 +0000, 8.580249, 0.093750, 0.128906, 1.976562, 0.982979, 90.821091
2016-09-27 17:34:56 +0000, 8.669595, 0.300781, -0.011719, 1.636719, 0.664168, 90.880432
2016-09-27 17:34:56 +0000, 8.764500, 0.269531, -0.113281, 1.507812, 0.535897, 90.931291
2016-09-27 17:34:56 +0000, 8.879200, 0.105469, -0.140625, 1.453125, 0.463718, 90.984480
2016-09-27 17:34:57 +0000, 8.974930, -0.058594, -0.343750, 1.363281, 0.407172, 91.023458
2016-09-27 17:34:57 +0000, 9.069871, -0.046875, -0.320312, 0.488281, -0.414154, 90.984138
2016-09-27 17:34:57 +0000, 9.179128, -0.289062, -0.390625, 0.417969, -0.359030, 90.944912
2016-09-27 17:34:57 +0000, 9.276712, -0.121094, -0.257812, 0.042969, -0.711942, 90.875438
2016-09-27 17:34:57 +0000, 9.373966, -0.097656, 0.101562, 0.343750, -0.628495, 90.814314
2016-09-27 17:34:57 +0000, 9.480243, -0.195312, 0.472656, 0.617188, -0.198457, 90.793222
2016-09-27 17:34:57 +0000, 9.580174, -0.117188, 0.320312, 0.718750, -0.204428, 90.772794
2016-09-27 17:34:57 +0000, 9.682387, 0.031250, 0.222656, 0.699219, -0.265521, 90.745654
2016-09-27 17:34:57 +0000, 9.781292, 0.210938, 0.160156, 0.523438, -0.413373, 90.704769
2016-09-27 17:34:57 +0000, 9.882313, 0.324219, -0.046875, 0.773438, -0.160047, 90.688601
2016-09-27 17:34:58 +0000, 9.984623, 0.312500, -0.191406, 0.742188, -0.172271, 90.670976
2016-09-27 17:34:58 +0000, 10.084359, 0.085938, -0.238281, 0.851562, -0.111562, 90.659849
2016-09-27 17:34:58 +0000, 10.183375, -0.386719, -0.386719, 1.464844, 0.563608, 90.715656
2016-09-27 17:34:58 +0000, 10.286772, -0.453125, -0.589844, 1.195312, 0.407839, 90.757825
2016-09-27 17:34:58 +0000, 10.382745, -0.238281, -0.703125, 1.089844, 0.318682, 90.788410
2016-09-27 17:34:58 +0000, 10.483698, -0.363281, -0.636719, 1.003906, 0.243065, 90.812948
2016-09-27 17:34:58 +0000, 10.587507, -0.246094, -0.757812, 1.023438, 0.297022, 90.843782
2016-09-27 17:34:58 +0000, 10.687604, 0.117188, -0.390625, 0.667969, -0.217374, 90.822023
2016-09-27 17:34:58 +0000, 10.784877, -0.078125, -0.238281, 1.246094, 0.271075, 90.848391
2016-09-27 17:34:58 +0000, 10.885692, 0.031250, -0.593750, 1.765625, 0.863048, 90.935399
2016-09-27 17:34:59 +0000, 10.985070, 0.203125, -0.058594, 1.179688, 0.198480, 90.955124
2016-09-27 17:34:59 +0000, 11.091296, 0.167969, 0.011719, 1.210938, 0.222588, 90.978769
2016-09-27 17:34:59 +0000, 11.190106, 0.132812, -0.128906, 1.164062, 0.178685, 90.996424
2016-09-27 17:34:59 +0000, 11.285942, -0.101562, -0.238281, 1.000000, 0.033002, 90.999587
2016-09-27 17:34:59 +0000, 11.387470, -0.199219, -0.300781, 0.921875, -0.010045, 90.998567
2016-09-27 17:34:59 +0000, 11.485566, -0.171875, -0.378906, 0.812500, -0.087165, 90.990017
2016-09-27 17:34:59 +0000, 11.585466, -0.121094, -0.242188, 0.710938, -0.239243, 90.966116
2016-09-27 17:34:59 +0000, 11.684901, -0.132812, -0.082031, 0.714844, -0.268310, 90.939437
2016-09-27 17:34:59 +0000, 11.783354, -0.093750, -0.000000, 0.742188, -0.251915, 90.914635
2016-09-27 17:34:59 +0000, 11.889539, 0.019531, 0.093750, 0.824219, -0.170237, 90.896559
2016-09-27 17:35:00 +0000, 11.980251, -0.105469, 0.234375, 1.148438, 0.176845, 90.912601
2016-09-27 17:35:00 +0000, 12.075224, -0.125000, 0.082031, 1.011719, 0.022707, 90.914757
2016-09-27 17:35:00 +0000, 12.209844, -0.218750, 0.089844, 0.796875, -0.168776, 90.892036
2016-09-27 17:35:00 +0000, 12.308988, -0.210938, 0.078125, 0.808594, -0.160702, 90.876104
2016-09-27 17:35:00 +0000, 12.401361, -0.175781, 0.093750, 1.027344, 0.046481, 90.880397
2016-09-27 17:35:00 +0000, 12.498534, -0.187500, 0.144531, 1.113281, 0.138174, 90.893824
2016-09-27 17:35:00 +0000, 12.602382, -0.148438, 0.093750, 0.960938, -0.023156, 90.891420
2016-09-27 17:35:00 +0000, 12.699188, -0.136719, 0.062500, 1.046875, 0.057613, 90.896997
2016-09-27 17:35:00 +0000, 12.793167, -0.167969, 0.105469, 0.984375, 0.004157, 90.897388
2016-09-27 17:35:00 +0000, 12.896887, -0.132812, 0.062500, 0.925781, -0.062655, 90.890889
2016-09-27 17:35:01 +0000, 12.997059, -0.058594, 0.031250, 0.968750, -0.028977, 90.887986
2016-09-27 17:35:01 +0000, 13.093120, -0.132812, 0.019531, 1.218750, 0.226121, 90.909708
2016-09-27 17:35:01 +0000, 13.192618, -0.105469, 0.023438, 0.937500, -0.056295, 90.904107
2016-09-27 17:35:01 +0000, 13.291810, -0.167969, 0.097656, 0.730469, -0.244133, 90.879890
2016-09-27 17:35:01 +0000, 13.385009, -0.128906, 0.082031, 0.953125, -0.034706, 90.876656
2016-09-27 17:35:01 +0000, 13.486371, -0.250000, 0.105469, 1.136719, 0.168654, 90.893751
2016-09-27 17:35:01 +0000, 13.583507, -0.261719, 0.078125, 1.078125, 0.112184, 90.904648
2016-09-27 17:35:01 +0000, 13.684767, -0.203125, -0.054688, 1.082031, 0.102289, 90.915006
2016-09-27 17:35:01 +0000, 13.782278, -0.253906, -0.023438, 1.015625, 0.047145, 90.919603
2016-09-27 17:35:01 +0000, 13.882934, -0.222656, -0.242188, 0.941406, -0.002766, 90.919325
2016-09-27 17:35:02 +0000, 13.982223, -0.148438, -0.273438, 0.937500, -0.012221, 90.918111
2016-09-27 17:35:02 +0000, 14.092010, -0.117188, -0.246094, 0.945312, -0.016175, 90.916336
2016-09-27 17:35:02 +0000, 14.165111, -0.125000, -0.210938, 0.949219, -0.019625, 90.914901
