Date, t, Acceleration X (g), Acceleration Y (g), Acceleration Z (g), Acceleration Scalar (g), Speed (m/2)
2016-10-06 18:14:12 +0000, 0.000000, -0.003906, 0.023438, 1.000000, 0.000282, 3.468312
2016-10-06 18:14:12 +0000, 0.060239, -0.007812, 0.003906, 1.011719, 0.011756, 3.469020
2016-10-06 18:14:12 +0000, 0.090165, -0.015625, 0.015625, 1.011719, 0.011960, 3.469378
2016-10-06 18:14:12 +0000, 0.150033, -0.003906, 0.007812, 1.011719, 0.011756, 3.470082
2016-10-06 18:14:12 +0000, 0.209930, -0.007812, 0.003906, 1.003906, 0.003944, 3.470318
2016-10-06 18:14:12 +0000, 0.239985, -0.011719, 0.019531, 1.011719, 0.011975, 3.470678
2016-10-06 18:14:12 +0000, 0.300071, -0.007812, 0.011719, 1.019531, 0.019629, 3.471857
2016-10-06 18:14:12 +0000, 0.360722, -0.007812, 0.003906, 1.003906, 0.003944, 3.472097
2016-10-06 18:14:12 +0000, 0.390276, -0.011719, 0.011719, 1.007812, 0.007949, 3.472331
2016-10-06 18:14:12 +0000, 0.450199, -0.015625, 0.015625, 1.003906, 0.004149, 3.472580
2016-10-06 18:14:12 +0000, 0.510054, -0.027344, 0.015625, 0.992188, -0.007313, 3.472142
2016-10-06 18:14:12 +0000, 0.540074, 0.007812, 0.003906, 1.023438, 0.023475, 3.472847
2016-10-06 18:14:12 +0000, 0.600085, -0.007812, 0.007812, 1.007812, 0.007873, 3.473320
2016-10-06 18:14:13 +0000, 0.660143, -0.007812, 0.007812, 1.019531, 0.019591, 3.474496
2016-10-06 18:14:13 +0000, 0.690089, -0.003906, 0.015625, 1.000000, 0.000130, 3.474500
2016-10-06 18:14:13 +0000, 0.750071, -0.007812, 0.011719, 1.011719, 0.011817, 3.475209
2016-10-06 18:14:13 +0000, 0.810093, -0.007812, 0.015625, 1.011719, 0.011870, 3.475921
2016-10-06 18:14:13 +0000, 0.840036, -0.007812, 0.019531, 1.011719, 0.011937, 3.476279
2016-10-06 18:14:13 +0000, 0.900311, -0.003906, 0.007812, 1.011719, 0.011756, 3.476987
2016-10-06 18:14:13 +0000, 0.960139, 0.003906, 0.003906, 1.015625, 0.015640, 3.477923
2016-10-06 18:14:13 +0000, 0.990979, -0.019531, 0.011719, 0.996094, -0.003646, 3.477811
2016-10-06 18:14:13 +0000, 1.050115, -0.003906, 0.011719, 1.007812, 0.007888, 3.478277
2016-10-06 18:14:13 +0000, 1.110067, -0.003906, 0.015625, 1.019531, 0.019658, 3.479456
2016-10-06 18:14:13 +0000, 1.140080, 0.000000, 0.011719, 1.015625, 0.015693, 3.479927
2016-10-06 18:14:13 +0000, 1.200017, 0.000000, 0.007812, 1.015625, 0.015655, 3.480865
2016-10-06 18:14:13 +0000, 1.260784, -0.015625, 0.019531, 1.023438, 0.023743, 3.482308
2016-10-06 18:14:13 +0000, 1.290166, -0.015625, 0.015625, 1.007812, 0.008055, 3.482544
2016-10-06 18:14:13 +0000, 1.350069, -0.007812, 0.019531, 1.007812, 0.008032, 3.483026
2016-10-06 18:14:13 +0000, 1.410095, -0.019531, 0.015625, 1.011719, 0.012028, 3.483748
2016-10-06 18:14:13 +0000, 1.440093, -0.019531, 0.007812, 1.011719, 0.011937, 3.484106
2016-10-06 18:14:13 +0000, 1.500432, 0.003906, 0.007812, 1.019531, 0.019569, 3.485286
2016-10-06 18:14:13 +0000, 1.560443, 0.000000, -0.000000, 1.023438, 0.023438, 3.486693
2016-10-06 18:14:13 +0000, 1.590171, -0.019531, 0.015625, 1.015625, 0.015933, 3.487167
2016-10-06 18:14:14 +0000, 1.650094, -0.003906, 0.023438, 1.023438, 0.023713, 3.488588
2016-10-06 18:14:14 +0000, 1.710301, -0.011719, 0.015625, 1.007812, 0.008002, 3.489069
2016-10-06 18:14:14 +0000, 1.739967, -0.015625, 0.003906, 1.011719, 0.011847, 3.489421
2016-10-06 18:14:14 +0000, 1.800196, -0.007812, 0.023438, 1.027344, 0.027641, 3.491086
2016-10-06 18:14:14 +0000, 1.860008, 0.007812, 0.015625, 1.011719, 0.011870, 3.491795
2016-10-06 18:14:14 +0000, 1.890080, -0.003906, 0.007812, 1.019531, 0.019569, 3.492384
2016-10-06 18:14:14 +0000, 1.949940, -0.003906, 0.011719, 1.011719, 0.011794, 3.493090
2016-10-06 18:14:14 +0000, 2.010002, -0.003906, 0.015625, 1.015625, 0.015753, 3.494036
2016-10-06 18:14:14 +0000, 2.039976, -0.007812, 0.019531, 1.003906, 0.004127, 3.494160
2016-10-06 18:14:14 +0000, 2.099995, -0.007812, 0.007812, 1.023438, 0.023497, 3.495570
2016-10-06 18:14:14 +0000, 2.159988, -0.011719, 0.019531, 1.019531, 0.019786, 3.496757
2016-10-06 18:14:14 +0000, 2.190441, 0.000000, 0.011719, 1.011719, 0.011787, 3.497116
2016-10-06 18:14:14 +0000, 2.279958, -0.007812, 0.007812, 1.003906, 0.003967, 3.497471
2016-10-06 18:14:14 +0000, 2.310141, -0.007812, -0.003906, 1.003906, 0.003944, 3.497590
2016-10-06 18:14:14 +0000, 2.339986, -0.015625, 0.011719, 1.011719, 0.011907, 3.497946
2016-10-06 18:14:14 +0000, 2.400020, 0.003906, 0.015625, 1.007812, 0.007941, 3.498422
2016-10-06 18:14:14 +0000, 2.459981, -0.007812, 0.003906, 1.011719, 0.011756, 3.499127
2016-10-06 18:14:14 +0000, 2.490183, -0.011719, 0.007812, 1.003906, 0.004005, 3.499248
2016-10-06 18:14:14 +0000, 2.550015, -0.007812, 0.011719, 1.007812, 0.007911, 3.499721
2016-10-06 18:14:14 +0000, 2.609968, 0.000000, 0.015625, 1.007812, 0.007934, 3.500197
2016-10-06 18:14:15 +0000, 2.670105, -0.007812, 0.007812, 1.019531, 0.019591, 3.501375
2016-10-06 18:14:15 +0000, 2.699975, -0.003906, 0.015625, 1.027344, 0.027470, 3.502196
2016-10-06 18:14:15 +0000, 2.759985, 0.000000, -0.000000, 1.007812, 0.007812, 3.502665
2016-10-06 18:14:15 +0000, 2.819979, -0.003906, 0.011719, 1.007812, 0.007888, 3.503138
2016-10-06 18:14:15 +0000, 2.849931, -0.015625, 0.007812, 1.019531, 0.019681, 3.503727
2016-10-06 18:14:15 +0000, 2.910232, -0.015625, 0.015625, 1.000000, 0.000244, 3.503742
2016-10-06 18:14:15 +0000, 2.969998, 0.003906, 0.015625, 1.015625, 0.015753, 3.504684
2016-10-06 18:14:15 +0000, 2.999980, 0.007812, 0.015625, 1.027344, 0.027492, 3.505508
2016-10-06 18:14:15 +0000, 3.059876, -0.003906, -0.000000, 1.027344, 0.027351, 3.507146
2016-10-06 18:14:15 +0000, 3.120241, -0.003906, 0.011719, 1.019531, 0.019606, 3.508330
2016-10-06 18:14:15 +0000, 3.149827, -0.015625, 0.019531, 1.011719, 0.012028, 3.508685
2016-10-06 18:14:15 +0000, 3.209945, 0.062500, 0.019531, 1.039062, 0.041124, 3.511158
2016-10-06 18:14:15 +0000, 3.270169, -0.035156, 0.023438, 1.003906, 0.004795, 3.511447
2016-10-06 18:14:15 +0000, 3.299984, 0.000000, 0.031250, 1.023438, 0.023914, 3.512160
2016-10-06 18:14:15 +0000, 3.359952, -0.019531, 0.011719, 1.011719, 0.011975, 3.512878
2016-10-06 18:14:15 +0000, 3.420021, -0.027344, 0.027344, 1.011719, 0.012457, 3.513626
2016-10-06 18:14:15 +0000, 3.449850, -0.046875, 0.093750, 1.011719, 0.017134, 3.514137
2016-10-06 18:14:15 +0000, 3.509931, -0.031250, 0.109375, 1.027344, 0.033622, 3.516157
2016-10-06 18:14:15 +0000, 3.569911, -0.089844, 0.152344, 0.996094, 0.011673, 3.516857
2016-10-06 18:14:15 +0000, 3.599953, 0.003906, 0.164062, 1.031250, 0.044226, 3.518186
2016-10-06 18:14:16 +0000, 3.659840, -0.062500, 0.085938, 1.003906, 0.009514, 3.518756
2016-10-06 18:14:16 +0000, 3.720057, -0.058594, 0.089844, 1.031250, 0.036813, 3.520972
2016-10-06 18:14:16 +0000, 3.749967, -0.132812, 0.132812, 1.039062, 0.055902, 3.522645
2016-10-06 18:14:16 +0000, 3.809963, -0.074219, 0.117188, 1.050781, 0.059897, 3.526238
2016-10-06 18:14:16 +0000, 3.869939, -0.117188, 0.097656, 0.968750, -0.019313, 3.525080
2016-10-06 18:14:16 +0000, 3.900070, -0.085938, 0.039062, 1.015625, 0.020003, 3.525682
2016-10-06 18:14:16 +0000, 3.959942, -0.113281, 0.015625, 0.953125, -0.040040, 3.523285
2016-10-06 18:14:16 +0000, 4.020057, -0.015625, -0.042969, 0.992188, -0.006760, 3.522879
2016-10-06 18:14:16 +0000, 4.049986, 0.003906, -0.078125, 1.000000, 0.003055, 3.522970
2016-10-06 18:14:16 +0000, 4.109958, 0.023438, -0.082031, 1.015625, 0.019202, 3.524122
2016-10-06 18:14:16 +0000, 4.170337, -0.035156, -0.160156, 0.996094, 0.009499, 3.524695
2016-10-06 18:14:16 +0000, 4.199979, 0.015625, -0.113281, 1.062500, 0.068636, 3.526730
2016-10-06 18:14:16 +0000, 4.259982, -0.066406, -0.085938, 1.007812, 0.013647, 3.527549
2016-10-06 18:14:16 +0000, 4.319828, 0.035156, -0.144531, 1.183594, 0.192904, 3.539093
2016-10-06 18:14:16 +0000, 4.350039, 0.039062, -0.082031, 0.984375, -0.011441, 3.538748
2016-10-06 18:14:16 +0000, 4.409961, 0.031250, -0.195312, 0.968750, -0.011263, 3.538073
2016-10-06 18:14:16 +0000, 4.470078, 0.156250, -0.097656, 0.910156, -0.071380, 3.533782
2016-10-06 18:14:16 +0000, 4.499848, 0.128906, -0.226562, 1.046875, 0.078840, 3.536129
2016-10-06 18:14:16 +0000, 4.559858, 0.171875, -0.089844, 1.121094, 0.137745, 3.544395
2016-10-06 18:14:16 +0000, 4.619966, -0.023438, -0.121094, 0.875000, -0.116350, 3.537401
2016-10-06 18:14:17 +0000, 4.649850, 0.179688, -0.164062, 1.125000, 0.151012, 3.541914
2016-10-06 18:14:17 +0000, 4.709852, 0.082031, -0.105469, 1.078125, 0.086373, 3.547097
2016-10-06 18:14:17 +0000, 4.769989, 0.121094, -0.125000, 1.078125, 0.092082, 3.552634
2016-10-06 18:14:17 +0000, 4.800132, 0.175781, -0.062500, 1.082031, 0.097997, 3.555588
2016-10-06 18:14:17 +0000, 4.859854, 0.171875, -0.058594, 0.996094, 0.012510, 3.556335
2016-10-06 18:14:17 +0000, 4.920470, 0.238281, 0.070312, 1.035156, 0.064552, 3.560248
2016-10-06 18:14:17 +0000, 4.950872, 0.074219, 0.031250, 1.085938, 0.088919, 3.562951
2016-10-06 18:14:17 +0000, 5.009961, 0.011719, 0.156250, 1.058594, 0.070127, 3.567095
2016-10-06 18:14:17 +0000, 5.070050, -0.089844, 0.117188, 1.003906, 0.014708, 3.567979
2016-10-06 18:14:17 +0000, 5.100837, -0.046875, 0.132812, 1.074219, 0.083412, 3.570547
2016-10-06 18:14:17 +0000, 5.159864, -0.140625, 0.210938, 1.109375, 0.137973, 3.578691
2016-10-06 18:14:17 +0000, 5.219968, -0.121094, 0.214844, 1.042969, 0.071730, 3.583002
2016-10-06 18:14:17 +0000, 5.250933, -0.128906, 0.078125, 1.062500, 0.073139, 3.585267
2016-10-06 18:14:17 +0000, 5.310360, -0.042969, 0.195312, 1.097656, 0.115725, 3.592144
2016-10-06 18:14:17 +0000, 5.369978, -0.230469, 0.093750, 1.085938, 0.114076, 3.598945
2016-10-06 18:14:17 +0000, 5.401169, -0.210938, 0.199219, 1.152344, 0.188309, 3.604819
2016-10-06 18:14:17 +0000, 5.459948, -0.316406, 0.125000, 1.066406, 0.119357, 3.611835
2016-10-06 18:14:17 +0000, 5.519942, -0.277344, 0.101562, 1.058594, 0.099025, 3.617775
2016-10-06 18:14:17 +0000, 5.550248, -0.328125, 0.011719, 1.039062, 0.089704, 3.620494
2016-10-06 18:14:17 +0000, 5.610022, -0.187500, -0.003906, 1.113281, 0.128967, 3.628203
2016-10-06 18:14:18 +0000, 5.669984, -0.238281, -0.074219, 0.976562, 0.007949, 3.628679
2016-10-06 18:14:18 +0000, 5.701926, -0.218750, -0.171875, 0.957031, -0.003355, 3.628572
2016-10-06 18:14:18 +0000, 5.760009, -0.152344, -0.144531, 0.925781, -0.050701, 3.625627
2016-10-06 18:14:18 +0000, 5.820039, -0.144531, -0.257812, 0.957031, 0.001631, 3.625725
2016-10-06 18:14:18 +0000, 5.851835, -0.101562, -0.226562, 1.023438, 0.053124, 3.627414
2016-10-06 18:14:18 +0000, 5.909944, -0.042969, -0.359375, 0.925781, -0.005984, 3.627067
2016-10-06 18:14:18 +0000, 5.969971, 0.050781, -0.289062, 0.964844, 0.008494, 3.627577
2016-10-06 18:14:18 +0000, 6.001044, 0.039062, -0.316406, 1.023438, 0.071944, 3.629812
2016-10-06 18:14:18 +0000, 6.060096, 0.125000, -0.277344, 1.054688, 0.097684, 3.635581
2016-10-06 18:14:18 +0000, 6.119985, 0.089844, -0.312500, 1.000000, 0.051536, 3.638667
2016-10-06 18:14:18 +0000, 6.151598, 0.132812, -0.289062, 1.042969, 0.090404, 3.641525
2016-10-06 18:14:18 +0000, 6.209986, 0.074219, -0.289062, 1.003906, 0.047327, 3.644288
2016-10-06 18:14:18 +0000, 6.269968, 0.222656, -0.246094, 1.031250, 0.083335, 3.649287
2016-10-06 18:14:18 +0000, 6.301434, 0.242188, -0.273438, 0.996094, 0.060955, 3.651205
2016-10-06 18:14:18 +0000, 6.360146, 0.269531, -0.316406, 1.058594, 0.137269, 3.659264
2016-10-06 18:14:18 +0000, 6.419984, 0.222656, -0.238281, 1.019531, 0.070419, 3.663478
2016-10-06 18:14:18 +0000, 6.451630, 0.218750, -0.234375, 1.023438, 0.072477, 3.665772
2016-10-06 18:14:18 +0000, 6.509979, 0.210938, -0.230469, 1.156250, 0.197716, 3.677308
2016-10-06 18:14:18 +0000, 6.569987, 0.191406, -0.074219, 1.152344, 0.170487, 3.687539
2016-10-06 18:14:18 +0000, 6.600849, -0.003906, -0.011719, 1.117188, 0.117256, 3.691157
2016-10-06 18:14:19 +0000, 6.660499, -0.003906, 0.117188, 1.082031, 0.088366, 3.696428
2016-10-06 18:14:19 +0000, 6.719961, 0.003906, 0.171875, 1.097656, 0.111038, 3.703031
2016-10-06 18:14:19 +0000, 6.750814, -0.128906, 0.222656, 1.140625, 0.169281, 3.708254
2016-10-06 18:14:19 +0000, 6.809853, -0.226562, 0.179688, 1.261719, 0.294431, 3.725637
2016-10-06 18:14:19 +0000, 6.869981, -0.335938, 0.132812, 1.210938, 0.263670, 3.741491
2016-10-06 18:14:19 +0000, 6.901012, -0.367188, 0.128906, 1.039062, 0.109547, 3.744890
2016-10-06 18:14:19 +0000, 6.960419, -0.410156, 0.218750, 0.968750, 0.074503, 3.749316
2016-10-06 18:14:19 +0000, 7.019844, -0.320312, 0.136719, 1.195312, 0.245016, 3.763876
2016-10-06 18:14:19 +0000, 7.051206, -0.359375, 0.246094, 0.910156, 0.009008, 3.764159
2016-10-06 18:14:19 +0000, 7.109968, -0.191406, 0.007812, 1.027344, 0.045051, 3.766806
2016-10-06 18:14:19 +0000, 7.169845, -0.285156, -0.019531, 0.992188, 0.032537, 3.768754
2016-10-06 18:14:19 +0000, 7.200928, -0.289062, -0.046875, 1.136719, 0.173833, 3.774157
2016-10-06 18:14:19 +0000, 7.260055, -0.398438, -0.113281, 1.132812, 0.206171, 3.786348
2016-10-06 18:14:19 +0000, 7.319961, -0.441406, -0.195312, 1.117188, 0.217002, 3.799347
2016-10-06 18:14:19 +0000, 7.350418, -0.269531, -0.253906, 1.121094, 0.180664, 3.804850
2016-10-06 18:14:19 +0000, 7.409960, -0.128906, -0.394531, 0.964844, 0.050331, 3.807847
2016-10-06 18:14:19 +0000, 7.469969, 0.218750, -0.398438, 0.937500, 0.041878, 3.810360
2016-10-06 18:14:19 +0000, 7.501697, -0.050781, -0.472656, 0.886719, 0.006108, 3.810554
2016-10-06 18:14:19 +0000, 7.560103, 0.136719, -0.187500, 0.929688, -0.041790, 3.808113
2016-10-06 18:14:19 +0000, 7.619985, 0.136719, -0.261719, 0.914062, -0.039428, 3.805752
2016-10-06 18:14:20 +0000, 7.649986, 0.136719, -0.246094, 1.082031, 0.118055, 3.809294
2016-10-06 18:14:20 +0000, 7.710004, 0.277344, -0.207031, 1.000000, 0.058197, 3.812786
2016-10-06 18:14:20 +0000, 7.770167, 0.191406, -0.234375, 1.152344, 0.191413, 3.824302
2016-10-06 18:14:20 +0000, 7.802072, 0.218750, -0.160156, 0.949219, -0.012823, 3.823893
2016-10-06 18:14:20 +0000, 7.860068, 0.187500, -0.238281, 1.171875, 0.210465, 3.836099
2016-10-06 18:14:20 +0000, 7.919945, 0.175781, -0.132812, 1.085938, 0.108061, 3.842570
2016-10-06 18:14:20 +0000, 7.952250, 0.128906, -0.183594, 1.210938, 0.231541, 3.850050
2016-10-06 18:14:20 +0000, 8.010160, 0.304688, -0.109375, 1.093750, 0.140652, 3.858195
2016-10-06 18:14:20 +0000, 8.069959, 0.238281, -0.136719, 1.144531, 0.177039, 3.868782
2016-10-06 18:14:20 +0000, 8.102198, 0.035156, -0.039062, 1.078125, 0.079405, 3.871342
2016-10-06 18:14:20 +0000, 8.160072, 0.214844, 0.019531, 1.023438, 0.045927, 3.874000
2016-10-06 18:14:20 +0000, 8.219988, -0.195312, -0.003906, 1.238281, 0.253596, 3.889194
2016-10-06 18:14:20 +0000, 8.250677, -0.152344, 0.402344, 1.234375, 0.307200, 3.898622
2016-10-06 18:14:20 +0000, 8.309968, -0.304688, 0.242188, 1.203125, 0.264515, 3.914305
2016-10-06 18:14:20 +0000, 8.369965, -0.238281, 0.296875, 1.246094, 0.302944, 3.932481
2016-10-06 18:14:20 +0000, 8.401373, -0.363281, 0.199219, 1.046875, 0.125881, 3.936434
2016-10-06 18:14:20 +0000, 8.459929, -0.257812, 0.152344, 1.085938, 0.126471, 3.943840
2016-10-06 18:14:20 +0000, 8.519972, -0.437500, 0.035156, 0.925781, 0.024555, 3.945314
2016-10-06 18:14:20 +0000, 8.550834, -0.281250, 0.066406, 1.121094, 0.157740, 3.950183
2016-10-06 18:14:20 +0000, 8.609990, -0.437500, 0.101562, 1.101562, 0.189605, 3.961399
2016-10-06 18:14:21 +0000, 8.669985, -0.238281, 0.093750, 1.050781, 0.081531, 3.966290
2016-10-06 18:14:21 +0000, 8.703441, -0.324219, -0.062500, 1.058594, 0.108894, 3.969933
2016-10-06 18:14:21 +0000, 8.759892, -0.242188, -0.039062, 1.027344, 0.056227, 3.973107
2016-10-06 18:14:21 +0000, 8.819963, -0.257812, -0.226562, 1.089844, 0.142610, 3.981674
2016-10-06 18:14:21 +0000, 8.851163, -0.207031, -0.230469, 1.019531, 0.065562, 3.983720
2016-10-06 18:14:21 +0000, 8.909984, -0.074219, -0.339844, 1.101562, 0.155181, 3.992848
2016-10-06 18:14:21 +0000, 8.969962, 0.054688, -0.359375, 1.105469, 0.163702, 4.002666
2016-10-06 18:14:21 +0000, 9.001503, 0.117188, -0.285156, 1.031250, 0.076347, 4.005074
2016-10-06 18:14:21 +0000, 9.059880, 0.210938, -0.363281, 1.070312, 0.149799, 4.013819
2016-10-06 18:14:21 +0000, 9.120001, 0.230469, -0.199219, 0.914062, -0.036509, 4.011624
2016-10-06 18:14:21 +0000, 9.151311, 0.269531, -0.242188, 1.089844, 0.148504, 4.016274
2016-10-06 18:14:21 +0000, 9.210003, 0.296875, -0.089844, 0.898438, -0.049528, 4.013367
2016-10-06 18:14:21 +0000, 9.269992, 0.242188, -0.179688, 1.085938, 0.127033, 4.020987
2016-10-06 18:14:21 +0000, 9.301488, 0.175781, -0.105469, 1.062500, 0.082095, 4.023573
2016-10-06 18:14:21 +0000, 9.360304, 0.164062, -0.179688, 1.253906, 0.277296, 4.039882
2016-10-06 18:14:21 +0000, 9.420082, 0.105469, -0.089844, 1.210938, 0.218838, 4.052964
2016-10-06 18:14:21 +0000, 9.451515, 0.109375, -0.164062, 1.230469, 0.246167, 4.060702
2016-10-06 18:14:21 +0000, 9.509962, -0.117188, -0.144531, 1.230469, 0.244458, 4.074990
2016-10-06 18:14:21 +0000, 9.569980, -0.035156, 0.089844, 1.113281, 0.117454, 4.082039
2016-10-06 18:14:21 +0000, 9.601177, -0.164062, 0.195312, 1.160156, 0.187866, 4.087900
2016-10-06 18:14:22 +0000, 9.659871, 0.070312, 0.507812, 1.191406, 0.297022, 4.105333
2016-10-06 18:14:22 +0000, 9.719814, -0.234375, 0.242188, 1.121094, 0.170657, 4.115563
2016-10-06 18:14:22 +0000, 9.751170, -0.042969, 0.460938, 1.058594, 0.155392, 4.120435
2016-10-06 18:14:22 +0000, 9.809973, -0.242188, 0.128906, 1.187500, 0.218781, 4.133300
2016-10-06 18:14:22 +0000, 9.869984, -0.082031, 0.375000, 1.023438, 0.093059, 4.138885
2016-10-06 18:14:22 +0000, 9.901819, -0.246094, 0.109375, 1.132812, 0.164384, 4.144118
2016-10-06 18:14:22 +0000, 9.959886, -0.128906, 0.414062, 0.992188, 0.082821, 4.148927
2016-10-06 18:14:22 +0000, 10.019930, 0.011719, 0.203125, 1.109375, 0.127879, 4.156606
2016-10-06 18:14:22 +0000, 10.051442, -0.023438, 0.199219, 1.027344, 0.046744, 4.158079
2016-10-06 18:14:22 +0000, 10.110157, -0.085938, 0.218750, 1.085938, 0.111079, 4.164601
2016-10-06 18:14:22 +0000, 10.169970, -0.156250, 0.261719, 0.812500, -0.132206, 4.156693
2016-10-06 18:14:22 +0000, 10.200153, -0.203125, 0.085938, 0.890625, -0.082472, 4.154204
2016-10-06 18:14:22 +0000, 10.260018, -0.222656, 0.042969, 0.925781, -0.046851, 4.151399
2016-10-06 18:14:22 +0000, 10.320005, -0.066406, -0.039062, 1.058594, 0.061394, 4.155082
2016-10-06 18:14:22 +0000, 10.351721, 0.117188, -0.164062, 1.132812, 0.150614, 4.159859
2016-10-06 18:14:22 +0000, 10.410020, 0.121094, -0.324219, 1.144531, 0.195715, 4.171269
2016-10-06 18:14:22 +0000, 10.470036, 0.187500, -0.300781, 1.171875, 0.224303, 4.184731
2016-10-06 18:14:22 +0000, 10.500545, 0.300781, -0.324219, 1.160156, 0.241592, 4.192101
2016-10-06 18:14:22 +0000, 10.560145, 0.222656, -0.441406, 0.929688, 0.052964, 4.195258
2016-10-06 18:14:22 +0000, 10.619960, 0.273438, -0.488281, 1.175781, 0.302171, 4.213332
2016-10-06 18:14:23 +0000, 10.650374, 0.160156, -0.375000, 0.734375, -0.160011, 4.208466
2016-10-06 18:14:23 +0000, 10.710002, 0.496094, -0.343750, 1.214844, 0.356510, 4.229724
2016-10-06 18:14:23 +0000, 10.769987, 0.257812, -0.175781, 0.656250, -0.273343, 4.213327
2016-10-06 18:14:23 +0000, 10.801345, 0.488281, -0.386719, 1.160156, 0.316789, 4.223261
2016-10-06 18:14:23 +0000, 10.860155, 0.117188, -0.238281, 1.097656, 0.129318, 4.230866
2016-10-06 18:14:23 +0000, 10.919914, 0.312500, -0.265625, 1.183594, 0.252640, 4.245964
2016-10-06 18:14:23 +0000, 10.951200, 0.066406, -0.214844, 1.238281, 0.258534, 4.254052
2016-10-06 18:14:23 +0000, 11.009977, 0.070312, 0.019531, 1.421875, 0.423746, 4.278959
2016-10-06 18:14:23 +0000, 11.069971, 0.148438, 0.097656, 1.355469, 0.367065, 4.300980
2016-10-06 18:14:23 +0000, 11.100748, -0.179688, 0.066406, 1.402344, 0.415368, 4.313764
2016-10-06 18:14:23 +0000, 11.160724, 0.039062, 0.371094, 0.964844, 0.034485, 4.315833
2016-10-06 18:14:23 +0000, 11.220027, -0.246094, 0.019531, 1.296875, 0.320162, 4.334819
2016-10-06 18:14:23 +0000, 11.250787, -0.136719, 0.460938, 1.066406, 0.169777, 4.340041
2016-10-06 18:14:23 +0000, 11.310015, -0.210938, 0.289062, 1.089844, 0.147088, 4.348753
2016-10-06 18:14:23 +0000, 11.369884, -0.261719, 0.363281, 0.906250, 0.010821, 4.349401
2016-10-06 18:14:23 +0000, 11.401121, -0.113281, 0.414062, 0.937500, 0.031109, 4.350373
2016-10-06 18:14:23 +0000, 11.459973, -0.042969, 0.332031, 1.085938, 0.136376, 4.358399
2016-10-06 18:14:23 +0000, 11.519991, -0.156250, 0.296875, 0.921875, -0.018979, 4.357260
2016-10-06 18:14:23 +0000, 11.550969, -0.105469, 0.250000, 1.074219, 0.107957, 4.360604
2016-10-06 18:14:23 +0000, 11.609971, -0.207031, 0.281250, 0.941406, 0.004096, 4.360846
2016-10-06 18:14:24 +0000, 11.669965, -0.210938, 0.164062, 0.953125, -0.010122, 4.360238
2016-10-06 18:14:24 +0000, 11.700885, -0.261719, 0.101562, 0.917969, -0.040063, 4.359000
2016-10-06 18:14:24 +0000, 11.759929, -0.093750, -0.000000, 1.062500, 0.066628, 4.362934
2016-10-06 18:14:24 +0000, 11.820014, -0.015625, -0.171875, 1.035156, 0.049444, 4.365905
2016-10-06 18:14:24 +0000, 11.851312, -0.011719, -0.210938, 1.101562, 0.121638, 4.369712
2016-10-06 18:14:24 +0000, 11.910044, -0.007812, -0.300781, 0.816406, -0.129914, 4.362081
2016-10-06 18:14:24 +0000, 11.969992, 0.117188, -0.328125, 1.214844, 0.263821, 4.377897
2016-10-06 18:14:24 +0000, 12.000676, 0.132812, -0.277344, 0.781250, -0.160411, 4.372975
2016-10-06 18:14:24 +0000, 12.059937, 0.234375, -0.351562, 1.195312, 0.267793, 4.388845
2016-10-06 18:14:24 +0000, 12.120001, 0.281250, -0.109375, 0.777344, -0.166137, 4.378866
2016-10-06 18:14:24 +0000, 12.150710, 0.433594, -0.363281, 1.125000, 0.259207, 4.386826
2016-10-06 18:14:24 +0000, 12.210342, 0.269531, -0.078125, 1.046875, 0.083835, 4.391825
2016-10-06 18:14:24 +0000, 12.269996, 0.238281, -0.238281, 1.222656, 0.268245, 4.407827
2016-10-06 18:14:24 +0000, 12.301458, 0.054688, -0.121094, 1.277344, 0.284236, 4.416770
2016-10-06 18:14:24 +0000, 12.359898, -0.031250, -0.023438, 1.472656, 0.473174, 4.444422
2016-10-06 18:14:24 +0000, 12.420013, -0.027344, -0.054688, 1.304688, 0.306119, 4.462824
2016-10-06 18:14:24 +0000, 12.451517, 0.113281, 0.050781, 1.265625, 0.271699, 4.471384
2016-10-06 18:14:24 +0000, 12.509992, -0.066406, -0.007812, 1.281250, 0.282994, 4.487932
2016-10-06 18:14:24 +0000, 12.570031, 0.238281, 0.199219, 1.156250, 0.197239, 4.499774
2016-10-06 18:14:24 +0000, 12.601313, 0.074219, 0.105469, 1.156250, 0.163420, 4.504886
2016-10-06 18:14:25 +0000, 12.659926, 0.289062, 0.269531, 0.980469, 0.057130, 4.508235
2016-10-06 18:14:25 +0000, 12.719885, -0.148438, 0.175781, 0.914062, -0.057427, 4.504791
2016-10-06 18:14:25 +0000, 12.751420, 0.015625, 0.378906, 1.292969, 0.347435, 4.515748
2016-10-06 18:14:25 +0000, 12.809942, -0.164062, 0.382812, 0.792969, -0.104310, 4.509643
2016-10-06 18:14:25 +0000, 12.869987, -0.394531, 0.160156, 1.015625, 0.101272, 4.515724
2016-10-06 18:14:25 +0000, 12.900963, -0.296875, 0.480469, 0.750000, -0.061126, 4.513831
2016-10-06 18:14:25 +0000, 12.959942, -0.214844, 0.226562, 1.101562, 0.144958, 4.522380
2016-10-06 18:14:25 +0000, 13.049994, -0.257812, 0.257812, 1.113281, 0.171465, 4.537821
2016-10-06 18:14:25 +0000, 13.089953, -0.230469, 0.160156, 1.261719, 0.292556, 4.549511
2016-10-06 18:14:25 +0000, 13.119837, -0.281250, 0.156250, 1.171875, 0.215239, 4.555943
2016-10-06 18:14:25 +0000, 13.169974, -0.429688, -0.000000, 1.140625, 0.218875, 4.566917
2016-10-06 18:14:25 +0000, 13.200166, -0.425781, -0.097656, 1.031250, 0.119957, 4.570539
2016-10-06 18:14:25 +0000, 13.259894, -0.402344, -0.277344, 0.906250, 0.029606, 4.572307
2016-10-06 18:14:25 +0000, 13.320008, -0.273438, -0.359375, 0.972656, 0.072371, 4.576658
2016-10-06 18:14:25 +0000, 13.351454, -0.238281, -0.480469, 0.851562, 0.006373, 4.576858
2016-10-06 18:14:25 +0000, 13.409998, -0.066406, -0.550781, 1.105469, 0.236863, 4.590725
2016-10-06 18:14:25 +0000, 13.470000, 0.019531, -0.507812, 1.035156, 0.153171, 4.599915
2016-10-06 18:14:25 +0000, 13.501376, 0.101562, -0.566406, 1.093750, 0.235888, 4.607317
2016-10-06 18:14:25 +0000, 13.560069, 0.273438, -0.585938, 1.171875, 0.338425, 4.627180
2016-10-06 18:14:25 +0000, 13.619931, 0.085938, -0.562500, 1.046875, 0.191528, 4.638645
2016-10-06 18:14:26 +0000, 13.651209, 0.265625, -0.468750, 1.226562, 0.339679, 4.649270
2016-10-06 18:14:26 +0000, 13.710030, 0.062500, -0.484375, 0.996094, 0.109382, 4.655704
2016-10-06 18:14:26 +0000, 13.769913, -0.093750, -0.382812, 1.046875, 0.118607, 4.662806
2016-10-06 18:14:26 +0000, 13.800699, 0.093750, -0.339844, 1.078125, 0.134300, 4.666941
2016-10-06 18:14:26 +0000, 13.859962, 0.324219, -0.429688, 1.101562, 0.226046, 4.680337
2016-10-06 18:14:26 +0000, 13.919992, 0.710938, -0.492188, 0.863281, 0.221857, 4.693655
2016-10-06 18:14:26 +0000, 13.951352, 0.468750, -0.386719, 0.785156, -0.007151, 4.693431
2016-10-06 18:14:26 +0000, 14.010002, 0.738281, -0.164062, 0.710938, 0.037983, 4.695658
2016-10-06 18:14:26 +0000, 14.069986, 0.445312, -0.070312, 0.667969, -0.194128, 4.684014
2016-10-06 18:14:26 +0000, 14.101493, 0.394531, 0.101562, 0.750000, -0.146496, 4.679398
2016-10-06 18:14:26 +0000, 14.159875, 0.332031, 0.226562, 0.597656, -0.279744, 4.663066
2016-10-06 18:14:26 +0000, 14.219982, -0.164062, 0.308594, 0.914062, -0.021401, 4.661780
2016-10-06 18:14:26 +0000, 14.251174, -0.023438, 0.308594, 0.839844, -0.104949, 4.658506
2016-10-06 18:14:26 +0000, 14.340047, -0.382812, 0.289062, 0.843750, -0.029425, 4.655891
2016-10-06 18:14:26 +0000, 14.369997, -0.226562, 0.421875, 1.062500, 0.165425, 4.660846
2016-10-06 18:14:26 +0000, 14.402813, -0.402344, 0.230469, 0.910156, 0.021460, 4.661550
2016-10-06 18:14:26 +0000, 14.460092, -0.609375, 0.421875, 0.847656, 0.125983, 4.668766
2016-10-06 18:14:26 +0000, 14.550179, -0.671875, 0.289062, 1.058594, 0.286699, 4.694594
2016-10-06 18:14:26 +0000, 14.572494, -0.394531, 0.234375, 1.019531, 0.118048, 4.697228
2016-10-06 18:14:26 +0000, 14.610289, -0.398438, 0.125000, 1.230469, 0.299396, 4.708544
2016-10-06 18:14:27 +0000, 14.670000, -0.136719, 0.011719, 1.089844, 0.098448, 4.714422
2016-10-06 18:14:27 +0000, 14.701259, -0.328125, -0.210938, 1.054688, 0.124512, 4.718314
2016-10-06 18:14:27 +0000, 14.759889, -0.281250, -0.144531, 1.105469, 0.149805, 4.727097
2016-10-06 18:14:27 +0000, 14.820022, -0.214844, -0.406250, 1.062500, 0.157628, 4.736576
2016-10-06 18:14:27 +0000, 14.851302, 0.113281, -0.585938, 0.886719, 0.068843, 4.738729
2016-10-06 18:14:27 +0000, 14.909898, 0.003906, -0.765625, 0.863281, 0.153885, 4.747747
2016-10-06 18:14:27 +0000, 15.000000, 0.472656, -0.753906, 1.000000, 0.338573, 4.778253
2016-10-06 18:14:27 +0000, 15.032474, 0.378906, -0.953125, 0.707031, 0.245757, 4.786233
2016-10-06 18:14:27 +0000, 15.063226, 0.449219, -0.613281, 0.792969, 0.098504, 4.789263
2016-10-06 18:14:27 +0000, 15.120007, 0.628906, -0.617188, 0.792969, 0.185429, 4.799791
2016-10-06 18:14:27 +0000, 15.179995, 0.671875, -0.578125, 0.765625, 0.171250, 4.810064
2016-10-06 18:14:27 +0000, 15.210608, 0.792969, -0.578125, 0.957031, 0.370743, 4.821414
2016-10-06 18:14:27 +0000, 15.270273, 0.667969, -0.593750, 0.863281, 0.242568, 4.835887
2016-10-06 18:14:27 +0000, 15.329820, 0.812500, -0.437500, 0.773438, 0.204063, 4.848038
2016-10-06 18:14:27 +0000, 15.360085, 0.757812, -0.234375, 0.781250, 0.113357, 4.851469
2016-10-06 18:14:27 +0000, 15.420008, 0.875000, -0.097656, 0.496094, 0.010579, 4.852103
2016-10-06 18:14:27 +0000, 15.479962, 0.500000, 0.113281, 0.527344, -0.264525, 4.836244
2016-10-06 18:14:27 +0000, 15.510243, 0.000000, 0.402344, 0.457031, -0.391101, 4.824401
2016-10-06 18:14:27 +0000, 15.570003, 0.011719, 0.613281, 0.441406, -0.244295, 4.809802
2016-10-06 18:14:28 +0000, 15.630039, -0.308594, 0.757812, 0.605469, 0.017891, 4.810876
2016-10-06 18:14:28 +0000, 15.689896, -0.441406, 0.656250, 0.746094, 0.087272, 4.816099
2016-10-06 18:14:28 +0000, 15.719892, -0.601562, 0.699219, 0.625000, 0.114185, 4.819525
2016-10-06 18:14:28 +0000, 15.780048, -0.718750, 0.757812, 0.828125, 0.332919, 4.839552
2016-10-06 18:14:28 +0000, 15.839927, -0.742188, 0.707031, 0.902344, 0.365635, 4.861446
2016-10-06 18:14:28 +0000, 15.869978, -0.761719, 0.527344, 1.121094, 0.454358, 4.875099
2016-10-06 18:14:28 +0000, 15.930144, -0.667969, 0.308594, 0.925781, 0.182575, 4.886084
2016-10-06 18:14:28 +0000, 15.990311, -0.632812, -0.171875, 1.136719, 0.312297, 4.904874
2016-10-06 18:14:28 +0000, 16.020294, -0.535156, -0.171875, 1.085938, 0.222781, 4.911554
2016-10-06 18:14:28 +0000, 16.079995, -0.566406, -0.281250, 1.015625, 0.196416, 4.923280
2016-10-06 18:14:28 +0000, 16.139890, -0.523438, -0.507812, 0.988281, 0.228235, 4.936950
2016-10-06 18:14:28 +0000, 16.169870, -0.371094, -0.562500, 0.992188, 0.199397, 4.942928
2016-10-06 18:14:28 +0000, 16.230070, -0.140625, -1.031250, 0.878906, 0.362251, 4.964736
2016-10-06 18:14:28 +0000, 16.289956, -0.292969, -1.093750, 0.769531, 0.369050, 4.986837
2016-10-06 18:14:28 +0000, 16.320107, -0.078125, -1.011719, 0.640625, 0.200033, 4.992868
2016-10-06 18:14:28 +0000, 16.380226, 0.183594, -1.171875, 0.750000, 0.403388, 5.017119
2016-10-06 18:14:28 +0000, 16.440120, 0.347656, -1.335938, 0.550781, 0.486255, 5.046243
2016-10-06 18:14:28 +0000, 16.500279, 0.570312, -0.949219, 0.558594, 0.240282, 5.060698
2016-10-06 18:14:28 +0000, 16.530682, 0.742188, -0.812500, 0.628906, 0.267486, 5.068830
2016-10-06 18:14:28 +0000, 16.589940, 1.058594, -0.757812, 0.671875, 0.465031, 5.096387
2016-10-06 18:14:29 +0000, 16.649989, 0.902344, -0.570312, 0.589844, 0.219589, 5.109573
2016-10-06 18:14:29 +0000, 16.680934, 0.781250, -0.570312, 0.511719, 0.094287, 5.112491
2016-10-06 18:14:29 +0000, 16.740150, 1.007812, -0.425781, 0.625000, 0.260000, 5.127887
2016-10-06 18:14:29 +0000, 16.799992, 0.773438, -0.027344, 0.695312, 0.040391, 5.130304
2016-10-06 18:14:29 +0000, 16.829855, 0.644531, -0.269531, 0.492188, -0.145415, 5.125962
2016-10-06 18:14:29 +0000, 16.890146, 0.671875, 0.066406, 0.628906, -0.077314, 5.121300
2016-10-06 18:14:29 +0000, 16.950112, 0.527344, -0.113281, 0.601562, -0.192039, 5.109784
2016-10-06 18:14:29 +0000, 16.980251, 0.335938, 0.105469, 0.644531, -0.265563, 5.101781
2016-10-06 18:14:29 +0000, 17.069997, 0.292969, 0.210938, 0.636719, -0.268060, 5.077723
2016-10-06 18:14:29 +0000, 17.100299, 0.093750, 0.371094, 0.796875, -0.115970, 5.074209
2016-10-06 18:14:29 +0000, 17.159925, -0.078125, 0.355469, 0.847656, -0.077513, 5.069587
2016-10-06 18:14:29 +0000, 17.220048, -0.171875, 0.433594, 0.847656, -0.032495, 5.067634
2016-10-06 18:14:29 +0000, 17.251023, -0.371094, 0.527344, 1.128906, 0.300089, 5.076929
2016-10-06 18:14:29 +0000, 17.309983, -0.269531, 0.363281, 1.132812, 0.219789, 5.089888
2016-10-06 18:14:29 +0000, 17.339925, -0.324219, 0.218750, 1.156250, 0.220608, 5.096493
2016-10-06 18:14:29 +0000, 17.400588, -0.226562, 0.171875, 1.125000, 0.160386, 5.106223
2016-10-06 18:14:29 +0000, 17.459958, -0.085938, 0.144531, 1.128906, 0.141361, 5.114615
2016-10-06 18:14:29 +0000, 17.490036, -0.093750, -0.117188, 1.050781, 0.061444, 5.116463
2016-10-06 18:14:29 +0000, 17.549993, -0.027344, -0.015625, 1.078125, 0.078585, 5.121175
2016-10-06 18:14:29 +0000, 17.609924, 0.035156, -0.191406, 1.054688, 0.072492, 5.125520
2016-10-06 18:14:30 +0000, 17.639950, 0.000000, -0.187500, 1.066406, 0.082764, 5.128005
2016-10-06 18:14:30 +0000, 17.700421, 0.019531, -0.222656, 1.039062, 0.062830, 5.131804
2016-10-06 18:14:30 +0000, 17.760019, 0.050781, -0.191406, 1.058594, 0.076957, 5.136391
2016-10-06 18:14:30 +0000, 17.790221, 0.042969, -0.218750, 1.082031, 0.104758, 5.139554
2016-10-06 18:14:30 +0000, 17.850031, 0.085938, -0.238281, 1.070312, 0.099878, 5.145528
2016-10-06 18:14:30 +0000, 17.909941, 0.089844, -0.191406, 1.078125, 0.098664, 5.151439
2016-10-06 18:14:30 +0000, 17.970026, 0.082031, -0.222656, 1.015625, 0.042976, 5.154021
2016-10-06 18:14:30 +0000, 18.000542, 0.132812, -0.140625, 0.988281, 0.007033, 5.154236
2016-10-06 18:14:30 +0000, 18.059958, 0.097656, -0.136719, 1.054688, 0.067986, 5.158275
2016-10-06 18:14:30 +0000, 18.120021, 0.128906, -0.097656, 0.972656, -0.013991, 5.157435
2016-10-06 18:14:30 +0000, 18.151638, 0.113281, -0.097656, 1.039062, 0.049772, 5.159009
2016-10-06 18:14:30 +0000, 18.209995, 0.187500, -0.132812, 1.000000, 0.026058, 5.160529
2016-10-06 18:14:30 +0000, 18.270008, 0.128906, -0.101562, 1.035156, 0.048084, 5.163415
2016-10-06 18:14:30 +0000, 18.300259, 0.132812, -0.097656, 1.003906, 0.017351, 5.163940
2016-10-06 18:14:30 +0000, 18.359960, 0.117188, -0.085938, 1.023438, 0.033703, 5.165952
2016-10-06 18:14:30 +0000, 18.420039, 0.136719, -0.078125, 0.988281, 0.000747, 5.165997
2016-10-06 18:14:30 +0000, 18.451534, 0.113281, -0.078125, 1.011719, 0.021034, 5.166659
2016-10-06 18:14:30 +0000, 18.509933, 0.128906, -0.097656, 0.996094, 0.009136, 5.167193
2016-10-06 18:14:30 +0000, 18.570055, 0.109375, -0.078125, 1.027344, 0.036099, 5.169363
2016-10-06 18:14:30 +0000, 18.600252, 0.128906, -0.097656, 1.023438, 0.036136, 5.170455
2016-10-06 18:14:31 +0000, 18.660508, 0.113281, -0.093750, 1.031250, 0.041680, 5.172966
2016-10-06 18:14:31 +0000, 18.720007, 0.105469, -0.093750, 1.035156, 0.044730, 5.175627
2016-10-06 18:14:31 +0000, 18.780017, 0.074219, -0.070312, 1.070312, 0.075184, 5.180139
2016-10-06 18:14:31 +0000, 18.811041, 0.101562, -0.078125, 1.027344, 0.035304, 5.181234
2016-10-06 18:14:31 +0000, 18.869894, 0.105469, -0.066406, 1.039062, 0.046511, 5.183972
2016-10-06 18:14:31 +0000, 18.929981, 0.101562, -0.070312, 1.035156, 0.042500, 5.186525
2016-10-06 18:14:31 +0000, 18.971726, 0.085938, -0.070312, 1.042969, 0.048863, 5.188565
2016-10-06 18:14:31 +0000, 19.020017, 0.093750, -0.070312, 1.058594, 0.065060, 5.191707
2016-10-06 18:14:31 +0000, 19.080020, 0.117188, -0.097656, 1.027344, 0.038607, 5.194024
2016-10-06 18:14:31 +0000, 19.110855, 0.109375, -0.085938, 1.031250, 0.040589, 5.195275
2016-10-06 18:14:31 +0000, 19.169989, 0.097656, -0.085938, 1.003906, 0.012299, 5.196002
2016-10-06 18:14:31 +0000, 19.230027, 0.085938, -0.074219, 1.035156, 0.041366, 5.198486
2016-10-06 18:14:31 +0000, 19.260522, 0.121094, -0.101562, 1.011719, 0.023989, 5.199218
2016-10-06 18:14:31 +0000, 19.320031, 0.117188, -0.074219, 1.027344, 0.036666, 5.201399
2016-10-06 18:14:31 +0000, 19.379993, 0.121094, -0.097656, 1.007812, 0.019748, 5.202584
2016-10-06 18:14:31 +0000, 19.439986, 0.121094, -0.062500, 1.031250, 0.040215, 5.204996
2016-10-06 18:14:31 +0000, 19.470361, 0.105469, -0.109375, 1.015625, 0.026928, 5.205814
2016-10-06 18:14:31 +0000, 19.530030, 0.113281, -0.085938, 1.007812, 0.017794, 5.206876
2016-10-06 18:14:31 +0000, 19.589999, 0.105469, -0.082031, 1.015625, 0.024376, 5.208338
